accX accY accZ
0.020920991897583008 0.0 0.057787954807281494
0.038490407168865204 0.0 0.05416613817214966
0.022813253104686737 0.0 0.03299355506896973
0.04971376806497574 0.0 0.04546797275543213
0.06749255955219269 0.0 0.05625009536743164
0.07888984680175781 0.0017154812812805176 0.032274842262268066
0.0512557178735733 0.005787670612335205 0.020202279090881348
0.021369874477386475 0.02021867036819458 0.0
0.04392530024051666 0.03587016463279724 0.0
0.05632618069648743 0.047922879457473755 0.0
0.03502567112445831 0.05788746476173401 0.0
0.016642309725284576 0.0584985613822937 0.0
0.011703550815582275 0.03726017475128174 0.0
0.02476709708571434 0.040856897830963135 0.0
0.0072304122149944305 0.05906420946121216 0.0
0.0 0.06350654363632202 0.0
0.0 0.04264110326766968 0.0
0.0 0.022863388061523438 0.0
0.0 0.011537224054336548 0.0
0.0 0.013064920902252197 0.0
0.0 0.012050539255142212 0.0022362470626831055
0.0 0.028467625379562378 0.0029784440994262695
0.0 0.02845504879951477 0.0
0.0 0.021962612867355347 0.0
0.010928936302661896 0.026950150728225708 0.005169391632080078
0.02296540141105652 0.08266538381576538 0.0
0.0 0.0 0.0
0.0 0.0 0.0
0.0 0.0 0.0
0.02183195948600769 0.0 0.02997124195098877
0.07673308253288269 0.02076500654220581 0.0321803092956543
0.0 0.0 0.029452741146087646
0.0 0.0 0.08031976222991943
0.0 0.02830374240875244 0.0
0.0 0.05882251262664795 0.0
0.012157648801803589 0.0 0.005545616149902344
0.05685168504714966 0.0 0.07250463962554932
0.0 0.09418368339538574 0.12667226791381836
0.0 0.03836393356323242 0.04334819316864014
0.0 0.0 0.0
0.0 0.0 0.0017840266227722168
0.0 0.005124211311340332 0.02451801300048828
0.0 0.0 0.0015925168991088867
0.0 0.026502132415771484 0.07130837440490723
0.0 0.0009740591049194336 0.0
0.0 0.2042616605758667 0.0
0.0 0.0 0.0
0.040822070091962814 0.0 0.031705379486083984
0.0 0.07132154703140259 0.0
0.0 0.11825597286224365 0.019151031970977783
0.0 0.03132450580596924 0.04343593120574951
0.06210155040025711 0.0 0.1290285587310791
0.036897383630275726 0.01263892650604248 0.031272053718566895
0.04208795726299286 0.006747007369995117 0.0
0.0 0.061664044857025146 0.0
0.0 0.06564390659332275 0.0
0.0 0.0094565749168396 0.0
0.0 0.0 0.0
0.02151060849428177 0.0 0.09146714210510254
0.0 0.0 0.1255091428756714
0.0 0.0 0.16743147373199463
0.0 0.004236400127410889 0.16847825050354004
0.0 0.026143819093704224 0.10748839378356934
0.09400288760662079 0.0061265528202056885 0.0
0.04466564208269119 0.0 0.0
0.0 0.012693941593170166 0.0
0.0 0.0 0.0
0.0 0.014999598264694214 0.0
0.0 0.03440392017364502 0.0
0.0 0.0 0.0
0.0 0.01262962818145752 0.0
0.0016639456152915955 0.001766204833984375 0.0
0.0 0.0 0.0
0.0 0.014608412981033325 0.0
0.0 0.004026740789413452 0.0
0.0 0.0 0.013473987579345703
0.003779269754886627 0.0 0.024509966373443604
0.0 0.0 0.0
0.0 0.0 0.0
0.0 0.0 0.0
0.0 0.005884647369384766 0.012834668159484863
0.0 0.02959686517715454 0.015881776809692383
0.0 0.004775106906890869 0.027211010456085205
0.0 0.002324521541595459 0.02828747034072876
0.0 0.0 0.031782686710357666
0.0 0.002064228057861328 0.023660004138946533
0.003998659551143646 0.0055307745933532715 0.029395341873168945
0.0 0.01238405704498291 0.024936318397521973
0.0 0.025111734867095947 0.01914680004119873
0.0 0.0 0.03598445653915405
0.0 0.0037880539894104004 0.04927802085876465
0.0 0.020169824361801147 0.05474334955215454
0.0 0.0 0.028031110763549805
0.004248548299074173 0.0 0.020191490650177002
0.0 0.00873708724975586 0.02436959743499756
0.00814860314130783 0.004860132932662964 0.030579030513763428
0.020016580820083618 0.002507925033569336 0.030705809593200684
0.0 0.0 0.0
0.0 0.0 0.0
0.0 0.0 0.0
0.008919477462768555 0.0 0.0
0.002516232430934906 0.0 0.0
0.010407596826553345 0.011726558208465576 0.0
0.005287237465381622 0.009826511144638062 0.0
0.0011148303747177124 0.012421965599060059 0.0
0.0 0.00211334228515625 0.0
0.0 0.0009149610996246338 0.0
0.0 0.0043013691902160645 0.00906217098236084
0.0 0.012088567018508911 0.021097660064697266
0.0 0.0 0.02483654022216797
0.0 0.0 0.013767540454864502
0.0 0.0 0.0
0.0 0.0 0.0002906918525695801
0.0 0.0 0.009654581546783447
0.0 0.0 0.012966752052307129
0.0 0.0 0.013451337814331055
0.0 0.0 0.004778265953063965
0.0 0.0 0.007705509662628174
0.0 0.0 0.03343576192855835
0.02223796397447586 0.0 0.05040162801742554
0.030860595405101776 0.004273414611816406 0.03017181158065796
0.030694060027599335 0.014775663614273071 0.009655296802520752
0.027108028531074524 0.03464546799659729 0.0016003251075744629
0.024346191436052322 0.05943262577056885 0.004307687282562256
0.026092739775776863 0.06387558579444885 0.031108379364013672
0.01694396138191223 0.06519675254821777 0.05448073148727417
0.057365916669368744 0.0881163477897644 0.025657176971435547
0.11453889310359955 0.022268742322921753 0.02530813217163086
0.12319076061248779 0.05493006110191345 0.09577304124832153
0.16055142879486084 0.0713011622428894 0.16167348623275757
0.11908579617738724 0.07603105902671814 0.1062396764755249
0.003987286239862442 0.11801406741142273 0.042262911796569824
0.03216630220413208 0.004863113164901733 0.0
0.0014553479850292206 0.0383661687374115 0.0
0.03988012671470642 0.0408608615398407 0.0
0.11514023691415787 0.023153156042099 0.0
0.11080941557884216 0.03174552321434021 0.0
0.1083768755197525 0.13663360476493835 0.02662140130996704
0.14372074604034424 0.16632959246635437 0.10823464393615723
0.09943646192550659 0.1346815526485443 0.08797085285186768
0.0 0.08855950832366943 0.0004087090492248535
0.0 0.0 0.0
0.0 0.0 0.0
0.0 0.0 0.0
0.0 0.0 0.0
0.0 0.0 0.0
0.0 0.0 0.0
0.0 0.0 0.0
0.0 0.0 0.0
0.0 0.0 0.0
0.0 0.0 0.0
0.0 0.0 0.0
0.0 0.010562151670455933 0.0
0.0 0.015535593032836914 0.0
0.0 0.004377126693725586 0.0
0.0 0.011958897113800049 0.0
0.0 0.004198342561721802 0.0
0.0 0.0 0.0
0.0 0.014897078275680542 0.0
0.0 0.020760387182235718 0.0
0.0 0.002240002155303955 0.0
0.0 0.002774357795715332 0.0
0.0 0.02005445957183838 0.0
0.0 0.029672592878341675 0.023442864418029785
0.0319034680724144 0.02208682894706726 0.04749786853790283
0.05504593998193741 0.01665562391281128 0.05568265914916992
0.06321259588003159 0.019122153520584106 0.041122257709503174
0.07787156105041504 0.032359182834625244 0.035105109214782715
0.09450559318065643 0.046367645263671875 0.025157630443572998
0.0972466766834259 0.054741114377975464 0.018978118896484375
0.08930553495883942 0.08178049325942993 0.011536061763763428
0.08356524258852005 0.10435384511947632 0.01018589735031128
0.07748506963253021 0.11069062352180481 0.022660672664642334
0.06976469606161118 0.10050904750823975 0.032838642597198486
0.06496578454971313 0.09037724137306213 0.03897380828857422
0.06991402059793472 0.0752832293510437 0.04608964920043945
0.07426513731479645 0.06518834829330444 0.05206727981567383
0.06468752026557922 0.047598958015441895 0.0487438440322876
0.04954085871577263 0.04363301396369934 0.038635969161987305
0.03319472819566727 0.02416333556175232 0.03687775135040283
0.004045233130455017 0.005280405282974243 0.026801705360412598
0.0 0.0 0.007745265960693359
0.0 0.0 0.0
0.0 0.0 0.0
0.0 0.0 0.006891369819641113
0.0 0.0 0.011983513832092285
0.0 0.0 0.015003740787506104
0.0 0.0 0.009867072105407715
0.0 0.0 0.003662586212158203
0.0 0.0 0.0
0.0 0.012833327054977417 0.0
0.0 0.02268880605697632 0.002773761749267578
0.0 0.02027219533920288 0.006347775459289551
0.0 0.01055094599723816 0.012447893619537354
0.0 0.010110229253768921 0.009607791900634766
0.0 0.0 0.006209850311279297
0.0 0.0 0.010273098945617676
0.0 0.0 0.007783651351928711
0.0 0.0 0.008893370628356934
0.0 0.0 0.012494444847106934
0.0 0.0 0.019865036010742188
0.0 0.0 0.010464251041412354
0.0 0.0019026100635528564 0.0007549524307250977
0.0 0.0010590851306915283 0.0
0.0 0.00428047776222229 0.0
0.0 0.0035348832607269287 0.0
0.0 0.009545207023620605 0.0
0.0 0.005091875791549683 0.006299078464508057
0.0 0.0 0.009113550186157227
0.0 0.0 0.013564229011535645
0.0 0.0 0.014693498611450195
0.0 0.000782012939453125 0.023191332817077637
0.0 0.0059053897857666016 0.02808701992034912
0.0 0.002910137176513672 0.012883245944976807
0.0006493721157312393 0.009447157382965088 0.001681506633758545
0.0008077248930931091 0.01025468111038208 0.0
0.0018397197127342224 0.014175742864608765 0.0
0.0030382759869098663 0.01512068510055542 0.0
0.0 0.008774816989898682 0.0
0.0 0.0 0.0
0.0 0.0 0.009972870349884033
0.0 0.0 0.015349030494689941
0.0 0.0 0.021684110164642334
0.0 0.0 0.015151381492614746
0.0 0.0 0.0
0.0 0.0 0.0
0.0 0.0001118779182434082 0.001779317855834961
0.0006948225200176239 0.005276203155517578 0.0
0.0 0.00709119439125061 0.0
0.0 0.005460828542709351 0.004419684410095215
0.0 0.006453782320022583 0.015441298484802246
0.0 0.0 0.012446999549865723
0.0 0.0 0.010289669036865234
0.0 0.0 0.015645146369934082
0.0 0.0 0.010233819484710693
0.0 0.005462437868118286 0.006749153137207031
0.0 0.004172801971435547 0.00395435094833374
0.0 0.0009417831897735596 0.002365589141845703
0.0 0.005410909652709961 0.005392670631408691
0.0 0.004753768444061279 0.005450725555419922
0.0 0.0068090856075286865 0.007079899311065674
0.0 0.00793313980102539 0.010123670101165771
0.0 0.008003383874893188 0.012370705604553223
0.0 0.006170779466629028 0.006078124046325684
0.0 0.006109505891799927 0.0030324459075927734
0.0 0.0021016597747802734 0.0010999441146850586
0.0 0.00037106871604919434 0.00583195686340332
0.0 0.0018993616104125977 0.01369321346282959
0.0 0.0 0.010010242462158203
0.0 0.0 0.012774288654327393
0.0 0.0 0.011321663856506348
0.0 0.0 0.0035839080810546875
0.0 0.0 0.006904542446136475
0.0 0.0 0.01124507188796997
0.0 0.0 0.009248733520507812
0.0 0.004523247480392456 0.0
0.0 0.0012324154376983643 0.0
0.0 0.000431060791015625 0.0
0.0 0.0 0.0
0.0 0.0017018616199493408 0.0
0.0 0.0050994157791137695 0.0
0.001355595886707306 0.009024977684020996 0.005505681037902832
0.00048377737402915955 0.006703615188598633 0.008590340614318848
0.002069534733891487 0.006188005208969116 0.018642842769622803
0.0 0.0051544904708862305 0.01531153917312622
0.0 0.0 0.011769235134124756
0.0 0.00031951069831848145 0.015357375144958496
0.0 0.0010744035243988037 0.016162753105163574
0.0 0.003645986318588257 0.017668604850769043
0.0 0.0015706121921539307 0.012830138206481934
0.0 0.004266798496246338 0.006398797035217285
0.0 0.0013627707958221436 0.0020048022270202637
0.0 0.002301156520843506 0.0028571486473083496
0.0 0.0 0.00039309263229370117
0.0 0.0 0.0
0.0 0.0 0.0028635263442993164
0.0 0.0 0.0
0.0 0.0 0.0
0.0028573349118232727 0.0019463896751403809 0.0
0.0 0.0027635693550109863 0.0
0.0 0.0 0.0
0.0 0.0 0.0036047697067260742
0.0 0.0 0.012126445770263672
0.0 0.004709959030151367 0.011707127094268799
0.0 0.010710269212722778 0.011415719985961914
0.0 0.008186906576156616 0.007232069969177246
0.0 0.007091909646987915 0.013841748237609863
0.0 0.002332925796508789 0.011275410652160645
0.0 0.0017971396446228027 0.012986958026885986
0.0 0.0 0.018697738647460938
0.0 0.0 0.021893739700317383
0.0 0.0 0.015583634376525879
0.0 0.0 0.005941331386566162
0.0 0.00024375319480895996 0.0
0.0 0.0037374794483184814 0.0
0.0 0.0025838613510131836 0.0
0.0 0.004392117261886597 0.0
0.0 0.005898028612136841 0.0
0.0025265440344810486 0.002187877893447876 0.0008925199508666992
0.0009658709168434143 0.0013868510723114014 0.003787696361541748
0.0017451979219913483 0.0011262595653533936 0.005096077919006348
0.0 0.003010004758834839 0.00024127960205078125
0.0 0.0019158720970153809 0.003917515277862549
0.0 0.0013804435729980469 0.0072089433670043945
0.0 0.0007572174072265625 0.0027965307235717773
0.0 0.004520207643508911 0.006687283515930176
0.0 0.006637275218963623 0.007091343402862549
0.0 0.0028392374515533447 0.008462786674499512
0.0 0.0001958310604095459 0.0086439847946167
0.0 0.0 0.008806228637695312
0.0 0.0 0.00966864824295044
0.0 0.0001068115234375 0.007116138935089111
0.00040501728653907776 0.004504948854446411 0.005329132080078125
0.0 0.0028720498085021973 0.002584517002105713
0.0 0.004959791898727417 0.004239320755004883
0.0 0.0009587109088897705 0.010824739933013916
0.0 0.0 0.009454190731048584
0.0 0.0 0.008477747440338135
0.0 0.001299530267715454 0.012253999710083008
0.0 0.00905764102935791 0.008077859878540039
0.0 0.01124030351638794 0.004564106464385986
0.0 0.007202178239822388 0.0021096467971801758
0.0 0.0019121766090393066 0.0010218024253845215
0.0 0.0 0.0031104683876037598
0.0 0.0 0.0038428902626037598
0.0 0.0 0.0
0.0 0.0020477473735809326 0.0
0.0 0.0 0.0
0.0 0.006459265947341919 0.008738219738006592
0.000677887350320816 0.006203740835189819 0.010768890380859375
0.0011435672640800476 0.003796607255935669 0.008637309074401855
0.0 0.003720015287399292 0.008616328239440918
0.001356152817606926 0.0034201443195343018 0.0064470767974853516
0.0 0.0067033469676971436 0.004694342613220215
0.0 0.005019187927246094 0.0042081475257873535
0.0030836500227451324 0.0 0.007060527801513672
0.0 0.0028955936431884766 0.00664675235748291
0.0 0.0007846653461456299 0.0071669816970825195
0.0 0.0025624334812164307 0.007583141326904297
0.0002492554485797882 0.004376053810119629 0.008092820644378662
0.0 0.0033477842807769775 0.006598293781280518
0.0 0.0023280084133148193 0.009174108505249023
0.0 0.0 0.0005924701690673828
0.0 0.0 0.0009935498237609863
0.0 0.0 0.0008494853973388672
0.0 0.0 0.004915297031402588
0.00011077523231506348 0.0014098882675170898 0.00988548994064331
0.0006048884242773056 0.004989564418792725 0.005903899669647217
0.0 0.005760073661804199 0.0
0.0 0.003995269536972046 0.0
0.0 0.0 0.004042327404022217
0.0 0.0 0.01112663745880127
0.0 0.0 0.01455080509185791
0.0 0.0 0.016466379165649414
0.0 0.0 0.01790076494216919
0.0 0.0 0.015343129634857178
0.0 0.0009238719940185547 0.012762248516082764
0.0 0.006246328353881836 0.01039278507232666
0.0 0.0069870054721832275 0.003156125545501709
0.0 0.015191346406936646 0.0
0.0014817044138908386 0.023460805416107178 0.0
0.005067065358161926 0.019300460815429688 0.0
0.005373567342758179 0.005986630916595459 0.0012923479080200195
0.0028282999992370605 0.0 0.006300449371337891
0.0 0.0 0.012913286685943604
0.0 0.0 0.014874637126922607
0.0 0.0 0.02257591485977173
0.0 0.0 0.015365540981292725
0.0 0.0 0.014046907424926758
0.0 0.0 0.009150266647338867
0.0 0.0 0.01403588056564331
0.008672883734107018 0.0 0.05686408281326294
0.03323880583047867 0.008689671754837036 0.08610951900482178
0.030296221375465393 0.0737467110157013 0.06237548589706421
0.07725405693054199 0.134220689535141 0.006418168544769287
0.18849503993988037 0.15911507606506348 0.009613633155822754
0.2928658127784729 0.17274266481399536 0.0
0.12212714552879333 0.2685166001319885 0.0
0.0 0.2502356171607971 0.0
0.01626265048980713 0.24427884817123413 0.0
0.023391425609588623 0.2256888747215271 0.0
0.0 0.1713162660598755 0.0
0.09561634063720703 0.10234981775283813 0.0
0.0 0.07513493299484253 0.0
0.0 0.02651149034500122 0.0
0.0 0.046087682247161865 0.0
0.0 0.0 0.0
0.0 0.10366818308830261 0.07546782493591309
0.0 0.0 0.3560664653778076
0.0 0.0 0.3332486152648926
0.0 0.0 0.24261713027954102
0.0 0.09107470512390137 0.1582202911376953
0.0 0.12674763798713684 0.10391724109649658
0.0 0.18618717789649963 0.14910101890563965
0.0 0.17997321486473083 0.25060486793518066
0.0 0.23095232248306274 0.31109297275543213
0.0 0.31469202041625977 0.3291645050048828
0.0 0.4030112624168396 0.3131239414215088
0.0 0.43084096908569336 0.23280316591262817
0.0 0.3545117974281311 0.2664520740509033
0.0 0.26605141162872314 0.29742562770843506
0.0 0.2348586916923523 0.26406556367874146
0.0 0.21605557203292847 0.25111573934555054
0.0 0.24070918560028076 0.19859099388122559
0.0 0.21572625637054443 0.1728951334953308
0.0 0.1591043472290039 0.2061241865158081
0.0 0.039266109466552734 0.2958614230155945
0.0 0.1937342882156372 0.1647568941116333
0.0 0.2067539095878601 0.16795480251312256
0.0 0.23059403896331787 0.11558365821838379
0.0 0.20490604639053345 0.1582731008529663
0.0 0.11757546663284302 0.18325024843215942
0.0 0.13788843154907227 0.17877686023712158
0.0 0.16451889276504517 0.2264772653579712
0.0 0.149169921875 0.2323184609413147
0.0 0.21643811464309692 0.16951781511306763
0.0 0.20842647552490234 0.17727220058441162
0.01108427345752716 0.2295967936515808 0.21231186389923096
0.016970902681350708 0.2668704390525818 0.14850640296936035
0.013455167412757874 0.27298760414123535 0.06645441055297852
0.03851137310266495 0.23950651288032532 0.0
0.0573916882276535 0.21125555038452148 0.0
0.03720507770776749 0.16553619503974915 0.0
0.02708324044942856 0.11262261867523193 0.0
0.03471637889742851 0.07934212684631348 0.0
0.031054098159074783 0.055386245250701904 0.0
0.0 0.04507392644882202 0.0
0.0 0.043639153242111206 0.0
0.004757635295391083 0.04328268766403198 0.0
0.009466864168643951 0.037263959646224976 0.0
0.0 0.022479921579360962 0.0
0.0 0.0 0.0
0.0 0.0011233389377593994 0.0
0.0 0.017561346292495728 0.0
0.0 0.03572867810726166 0.0
0.0 0.04755021631717682 0.0
0.0003786943852901459 0.040019065141677856 0.0
0.0 0.027725979685783386 0.0
0.0 0.011859118938446045 0.0
0.0 0.0060201287269592285 0.00023472309112548828
0.0 0.0069093406200408936 0.004285633563995361
0.0 0.003122761845588684 0.006487667560577393
0.0 0.007678568363189697 0.002055644989013672
0.0 0.0 0.0
0.0 0.0 0.0
0.0 0.003941699862480164 0.0
0.0 0.0 0.0
0.0016633421182632446 0.00019827485084533691 0.00360107421875
0.0 0.0 0.00124281644821167
0.0003717094659805298 0.0 0.0011104941368103027
0.003106623888015747 0.006342530250549316 0.0049498677253723145
0.00048615410923957825 0.009934604167938232 0.00562673807144165
0.0022151023149490356 0.010271847248077393 0.012499809265136719
0.0 0.008343666791915894 0.01667332649230957
0.0 0.0 0.017188966274261475
0.0 0.006229996681213379 0.018088042736053467
0.0026661083102226257 0.0036748945713043213 0.01514655351638794
0.0 0.0018679797649383545 0.007638037204742432
0.0 0.007256925106048584 0.006429076194763184
0.0025285035371780396 0.010775625705718994 0.012038648128509521
0.00572977215051651 0.010472983121871948 0.007308840751647949
0.003125946968793869 0.005756765604019165 0.004236042499542236
0.007259652018547058 0.009870201349258423 0.006640017032623291
0.004208013415336609 0.005978822708129883 0.00911855697631836
0.0 0.0032393932342529297 0.005702376365661621
0.0 0.0 0.003154754638671875
0.0 0.0045310258865356445 0.0
0.0 0.0 0.004039347171783447
0.0 0.0017435550689697266 0.0047165751457214355
0.0 0.0 0.005997896194458008
0.0 0.0011246204376220703 0.012767136096954346
0.0 0.0023574233055114746 0.014566898345947266
0.0 0.0064688026905059814 0.00989300012588501
0.0012211576104164124 0.005782455205917358 0.011530935764312744
0.0033080950379371643 0.003631412982940674 0.010446369647979736
0.004154682159423828 0.004291564226150513 0.010252654552459717
0.0023312605917453766 0.006458312273025513 0.0029641389846801758
0.007296949625015259 0.005070745944976807 0.0010384917259216309
0.004691407084465027 0.01205030083656311 0.0
0.004984676837921143 0.01371753215789795 0.0
0.004466786980628967 0.01710665225982666 0.0006902813911437988
0.0029755234718322754 0.012033939361572266 0.0
0.0018670186400413513 0.008426874876022339 0.002625584602355957
0.0 0.0006151497364044189 0.0034480690956115723
0.0 0.0 0.006564438343048096
0.0 0.0038122236728668213 0.011799275875091553
0.0 0.0010670125484466553 0.014638841152191162
0.0 0.0021777749061584473 0.010734260082244873
0.0 0.006214261054992676 0.005888104438781738
0.0 0.0070011913776397705 0.005914926528930664
0.0 0.005318731069564819 0.004017889499664307
0.0 0.003314286470413208 0.0041539669036865234
0.0 0.00032961368560791016 0.004922449588775635
0.0 0.0 0.0
0.0 0.0019929111003875732 0.0
0.0 0.004010379314422607 0.0
0.0 0.00636136531829834 0.005600154399871826
0.0 0.005534738302230835 0.004781484603881836
0.0 0.007122635841369629 0.0
0.0 0.0063918232917785645 0.0004201531410217285
0.0009672902524471283 0.005899012088775635 0.005044460296630859
0.005035344511270523 0.007842421531677246 0.007746636867523193
0.0008426457643508911 0.008770495653152466 0.008227109909057617
0.0004344768822193146 0.004455506801605225 0.005984842777252197
0.0 0.004389464855194092 0.00670778751373291
0.0 0.005115240812301636 0.007029473781585693
0.0018575601279735565 0.008911609649658203 0.006042778491973877
0.0010563433170318604 0.0054739415645599365 0.007253527641296387
0.0 0.003983139991760254 0.009907841682434082
0.001681007444858551 0.0029039382934570312 0.012599349021911621
0.003729265183210373 0.007682532072067261 0.009143829345703125
0.004126012325286865 0.007838964462280273 0.010065674781799316
0.0 0.005465030670166016 0.006199240684509277
0.0 0.0025200247764587402 0.0033574700355529785
0.00023940950632095337 0.0025271475315093994 0.004767239093780518
0.00692208856344223 0.00214540958404541 0.005982637405395508
0.0 0.0 0.004067659378051758
0.0 0.0 0.0037099123001098633
0.0003971382975578308 0.005923807621002197 0.004259347915649414
0.013726502656936646 0.014196634292602539 0.007506728172302246
0.018965601921081543 0.03101488947868347 0.00800400972366333
0.0346035361289978 0.04600563645362854 0.011565446853637695
0.05369631201028824 0.0670379102230072 0.0033577680587768555
0.05371789634227753 0.06755191087722778 0.0
0.04072076082229614 0.05414456129074097 0.0
0.03513231873512268 0.048473745584487915 0.0
0.02631586790084839 0.04756245017051697 0.0
0.021628275513648987 0.0391995906829834 0.0021932125091552734
0.01957620680332184 0.032743990421295166 0.0
0.015264049172401428 0.03505238890647888 0.0
0.0 0.029801517724990845 0.0
0.0 0.017097383737564087 0.0
0.0 0.0029456615447998047 0.0
0.0 0.0 0.0
0.0 0.0 0.0
0.0 0.0 0.0
0.0 0.0 0.005129039287567139
0.0 0.0 0.03407162427902222
0.0 0.0 0.0651199221611023
0.0 0.0 0.08989107608795166
0.0 0.0 0.10505396127700806
0.0 0.0 0.10547316074371338
0.0 0.0 0.08496952056884766
0.0 0.0 0.07970577478408813
0.0 0.0 0.07920563220977783
0.0 0.0 0.07694065570831299
0.0 0.0 0.06615781784057617
0.0 0.01819545030593872 0.05130189657211304
0.006238505244255066 0.05086258053779602 0.039066195487976074
0.020687907934188843 0.05592963099479675 0.02576202154159546
0.021284639835357666 0.05127441883087158 0.004515528678894043
0.027055159211158752 0.03968724608421326 0.0
0.03713330626487732 0.039387911558151245 0.0
0.03842344880104065 0.030834078788757324 0.0
0.04439625144004822 0.028079122304916382 0.0
0.04237218201160431 0.034074991941452026 0.0
0.034170836210250854 0.027693569660186768 0.0
0.025575906038284302 0.023686885833740234 0.0
0.03284776210784912 0.015308409929275513 0.0
0.027822822332382202 0.014442354440689087 0.0
0.02461470663547516 0.025532186031341553 0.0
0.021791011095046997 0.03354769945144653 0.0
0.029056042432785034 0.029863089323043823 0.0
0.01026393473148346 0.022932708263397217 0.0
0.011771276593208313 0.019210398197174072 0.0
0.006188929080963135 0.01202923059463501 0.0
0.0 0.011653423309326172 0.0
0.0 0.01087939739227295 0.0
0.0 0.0 0.002717435359954834
0.0 0.0 0.0
0.0 0.0 0.0
0.0 0.0 0.0
0.0 0.0 0.010151386260986328
0.0 0.0 0.0
0.0 0.0 0.0
0.0 0.0 0.025248169898986816
0.0 0.0 0.04778468608856201
0.0 0.0 0.0621456503868103
0.0 0.0 0.07185196876525879
0.0 0.0071024298667907715 0.059652745723724365
0.0 0.015044867992401123 0.0589638352394104
0.014789655804634094 0.01925748586654663 0.06438398361206055
0.016559869050979614 0.02844497561454773 0.06428956985473633
0.02062445878982544 0.029473334550857544 0.06269019842147827
0.026829421520233154 0.028492718935012817 0.05711567401885986
0.032774925231933594 0.02876719832420349 0.047449707984924316
0.026630163192749023 0.024708867073059082 0.021827101707458496
0.019093111157417297 0.02239033579826355 0.007307589054107666
0.023054614663124084 0.02569255232810974 0.0001621842384338379
0.03393121063709259 0.029920607805252075 0.0
0.02784600853919983 0.0393868088722229 0.0
0.021324515342712402 0.01057213544845581 0.0
0.0 0.016183018684387207 0.0
0.0 0.01913505792617798 0.0
0.014386221766471863 0.006668061017990112 0.0
0.014552861452102661 0.011616826057434082 0.0
0.006874680519104004 0.0 0.0
0.0 0.0 0.0
0.0 0.0 0.0
0.0 0.0 0.0
0.0 0.0 0.0
0.0 0.0 0.0
0.0 0.0 0.0
0.0 0.0 0.012524545192718506
0.0 0.0 0.0158538818359375
0.0 0.0 0.02949756383895874
0.0 0.0 0.02983003854751587
0.0 0.0 0.03968489170074463
0.0 0.004748046398162842 0.05444890260696411
0.0 0.007824629545211792 0.055020809173583984
0.0 0.01137232780456543 0.0563427209854126
0.0 0.013684630393981934 0.06043648719787598
0.0040778666734695435 0.016403019428253174 0.057157039642333984
0.007488861680030823 0.017834007740020752 0.05162203311920166
0.0035334229469299316 0.01896721124649048 0.04343456029891968
0.011216916143894196 0.01900792121887207 0.03180980682373047
0.00849643349647522 0.027424663305282593 0.02852165699005127
0.00975961983203888 0.012741804122924805 0.023816227912902832
0.002073228359222412 0.009176284074783325 0.010596871376037598
0.0 0.015502840280532837 0.0
0.0 0.0 0.0
0.008453398942947388 0.0 0.0
0.0 0.0 0.0
0.0 0.0 0.0
0.0 0.0 0.0
0.0 0.0 0.0
0.0 0.0 0.0
0.01441219449043274 0.0 0.0
0.005662053823471069 0.0 0.0
0.006094157695770264 0.0 0.0
0.01585698127746582 0.01925244927406311 0.0
0.0039481520652771 0.028845906257629395 0.0
0.0019018054008483887 0.030773639678955078 0.0
0.0009884536266326904 0.031050175428390503 0.0
0.014706045389175415 0.027685940265655518 0.0
0.012098178267478943 0.033071666955947876 0.0005670785903930664
0.013868749141693115 0.03359523415565491 0.012419164180755615
0.01968604326248169 0.034030258655548096 0.014649391174316406
0.01409180462360382 0.03581798076629639 0.012977540493011475
0.01574307680130005 0.0368751585483551 0.02675914764404297
0.02395971119403839 0.03484314680099487 0.026601314544677734
0.020283028483390808 0.04088640213012695 0.03080540895462036
0.025708884000778198 0.03966215252876282 0.024919629096984863
0.013870030641555786 0.030304551124572754 0.023710310459136963
0.009672775864601135 0.01539495587348938 0.033315420150756836
0.014309391379356384 0.007155895233154297 0.04060089588165283
0.012405619025230408 0.005207449197769165 0.03449457883834839
0.0 0.002338886260986328 0.016142964363098145
0.0 0.0 0.0069182515144348145
0.0 0.0 0.0
0.0 0.0 0.0
0.0 0.0 0.0
0.0 0.0 0.0
0.0 0.0 0.0
0.0 0.0 0.0
0.0 0.0 0.0
0.0 0.0 0.0
0.0 0.0 0.0
0.0 0.0 0.0
0.0 0.0 0.0
0.0 0.0 0.0027681589126586914
0.0 0.0 0.01674973964691162
0.0 0.0 0.043808043003082275
0.0 0.007660657167434692 0.06346213817596436
0.006957732141017914 0.030242204666137695 0.06753331422805786
0.007522061467170715 0.02692672610282898 0.057441532611846924
0.00323699414730072 0.033638715744018555 0.045070767402648926
0.0009042471647262573 0.03274989128112793 0.047322213649749756
0.0 0.03345292806625366 0.04173678159713745
0.006702147424221039 0.028006523847579956 0.04930621385574341
0.012807324528694153 0.02087453007698059 0.048619091510772705
0.009524747729301453 0.01570451259613037 0.03160327672958374
0.00407002866268158 0.006120860576629639 0.011818885803222656
0.0011067837476730347 0.0013402104377746582 0.0
0.004328086972236633 0.0015411674976348877 0.0
0.005640000104904175 0.0 0.0
0.004068300127983093 0.0004970729351043701 0.0
0.008898705244064331 0.0032128095626831055 0.0
0.009118080139160156 0.006734073162078857 0.0
0.010282769799232483 0.012354731559753418 0.0
0.017405405640602112 0.009650439023971558 0.0
0.020660996437072754 0.0101776123046875 0.0
0.014017105102539062 0.0038784146308898926 0.0
0.007948577404022217 0.0 0.0020359158515930176
0.008708089590072632 0.0011287331581115723 0.008991897106170654
0.0023438632488250732 0.004147201776504517 0.0022736191749572754
0.0 0.004928648471832275 0.00485992431640625
0.0 0.007712990045547485 0.003363668918609619
0.0 0.014237403869628906 0.0
0.00241813063621521 0.014141887426376343 0.004985332489013672
0.00012156367301940918 0.01951420307159424 0.005061447620391846
0.0013034045696258545 0.015896499156951904 0.002321600914001465
0.0 0.012712270021438599 0.00023794174194335938
0.0 0.01250004768371582 0.0013298392295837402
0.0 0.015532106161117554 0.005045711994171143
0.0 0.013867437839508057 0.012417137622833252
0.0 0.006488591432571411 0.018587112426757812
0.0 0.00334244966506958 0.017955005168914795
0.0 0.0 0.016356229782104492
0.0 0.0 0.00976252555847168
0.0 0.0 0.012795627117156982
0.0001131892204284668 0.0 0.01692986488342285
0.004705742001533508 0.003926098346710205 0.008787214756011963
0.0007664859294891357 0.0021597445011138916 0.0
0.001744791865348816 0.0031552910804748535 0.0
0.007455319166183472 0.0005353689193725586 0.0
0.012289240956306458 0.0 0.0
0.022798016667366028 0.01278620958328247 0.00033777952194213867
0.026170268654823303 0.051466524600982666 0.033002257347106934
0.06405758857727051 0.028328269720077515 0.013886809349060059
0.10884645581245422 0.03631424903869629 0.0
0.08014732599258423 0.11928015947341919 0.0
0.0967719554901123 0.24791765213012695 0.0
0.1704927682876587 0.3152503967285156 0.0
0.17147135734558105 0.2849053740501404 0.0
0.11517250537872314 0.31167566776275635 0.0
0.05699789524078369 0.2976759672164917 0.0
0.0 0.25432002544403076 0.0
0.0 0.15705075860023499 0.0
0.0 0.06454956531524658 0.0
0.0 0.0 0.0
0.0 0.0 0.10436952114105225
0.0 0.0 0.44884729385375977
0.0 0.0 0.42943572998046875
0.0 0.08315348625183105 0.22287511825561523
0.0 0.20126160979270935 0.10290837287902832
0.0 0.24157443642616272 0.10329008102416992
0.0 0.17697501182556152 0.15758895874023438
0.0 0.1556762158870697 0.2750849723815918
0.0 0.19462072849273682 0.3631850481033325
0.0 0.3509606420993805 0.31740695238113403
0.0 0.3848569393157959 0.378071129322052
0.0 0.3460811972618103 0.4222679138183594
0.0 0.2874571681022644 0.3737727403640747
0.0 0.23813176155090332 0.3647746443748474
0.0 0.23926037549972534 0.27442049980163574
0.0 0.1963207721710205 0.25365346670150757
0.0 0.14676004648208618 0.2255803346633911
0.0 0.19110828638076782 0.20240378379821777
0.0 0.2810550332069397 0.1488499641418457
0.0 0.258239209651947 0.14963114261627197
0.0 0.24326246976852417 0.14528226852416992
0.0 0.20624572038650513 0.1357022523880005
0.0 0.19570928812026978 0.15380561351776123
0.0 0.20778745412826538 0.19798314571380615
0.0 0.16215068101882935 0.23901700973510742
0.0 0.15002208948135376 0.2759283185005188
0.0 0.11163216829299927 0.29100412130355835
0.0 0.19954949617385864 0.2753959894180298
0.0 0.1949601173400879 0.30106067657470703
0.0 0.22314220666885376 0.265235960483551
0.0007765293121337891 0.22795581817626953 0.22185242176055908
0.037291839718818665 0.25695472955703735 0.15694838762283325
0.055727481842041016 0.26417773962020874 0.027844786643981934
0.07089398056268692 0.2668885886669159 0.0
0.047963470220565796 0.23860740661621094 0.0
0.05268581211566925 0.19856971502304077 0.0
0.0 0.17546777427196503 0.0
0.0 0.1419360339641571 0.0
0.0 0.05546954274177551 0.0
0.0 0.01734234392642975 0.0
0.0 0.0 0.0
0.0 0.0 0.0
0.0 0.0 0.0
0.0 0.009710744023323059 0.0
0.0 0.03285737335681915 0.0
0.0 0.03398735821247101 0.02083909511566162
0.0008764863014221191 0.02994370460510254 0.03298962116241455
0.0 0.02894991636276245 0.038925349712371826
0.003670699894428253 0.022648215293884277 0.047175586223602295
0.006898075342178345 0.016316533088684082 0.05110466480255127
0.0 0.006985902786254883 0.03796607255935669
0.0 0.0012090504169464111 0.023530185222625732
0.0008959025144577026 0.006155908107757568 0.014239966869354248
0.0028678178787231445 0.00449797511100769 0.010127663612365723
0.008668199181556702 0.009773105382919312 0.015248358249664307
0.0 0.016219347715377808 0.006862998008728027
0.0 0.0002829134464263916 0.0
0.0015176981687545776 0.013208895921707153 0.005365133285522461
0.014504164457321167 0.009344220161437988 0.011581122875213623
0.007786378264427185 0.00519135594367981 0.012465059757232666
0.0 0.004110068082809448 0.008258938789367676
0.0 0.0 0.004227876663208008
0.0 0.004271388053894043 0.003642439842224121
0.0 0.011266648769378662 0.007601499557495117
0.0 0.01601085066795349 0.0021607279777526855
0.0 0.008843064308166504 0.00037407875061035156
0.0 0.011403948068618774 0.0008285045623779297
0.0 0.00026994943618774414 0.00312882661819458
0.0 0.0027065277099609375 0.0
0.0 0.0035226643085479736 0.0
0.0 0.0056954026222229 0.0
0.0 0.009724229574203491 0.0
0.0 0.0058682262897491455 0.0
0.0 0.005822479724884033 0.0012754201889038086
0.003922402858734131 0.007233291864395142 0.004409909248352051
0.008015483617782593 0.006071627140045166 0.008846521377563477
0.00019533932209014893 0.008577525615692139 0.0024226903915405273
0.0 0.0 0.0023742318153381348
0.001776278018951416 0.012285470962524414 0.004447042942047119
0.01085275411605835 0.013790696859359741 0.004753589630126953
0.002025097608566284 0.009043335914611816 0.004441678524017334
0.0014950484037399292 0.004979312419891357 0.008856058120727539
0.0007944554090499878 0.0008262693881988525 0.009868800640106201
0.0 0.004017174243927002 0.0046898722648620605
0.0 0.009293973445892334 0.01095736026763916
0.0 0.008470237255096436 0.010725438594818115
0.0 0.00987398624420166 0.007617354393005371
0.0 0.012822568416595459 0.005007505416870117
0.0 0.010979324579238892 0.0065618157386779785
0.0 0.008199453353881836 0.00656890869140625
0.0 0.010712295770645142 0.00770038366317749
0.003652408719062805 0.010671049356460571 0.007208585739135742
0.0 0.0152987539768219 0.003943383693695068
0.0 0.009156405925750732 0.004989564418792725
0.0 0.009926587343215942 0.00872492790222168
0.0 0.004907131195068359 0.005519449710845947
0.0 0.004358053207397461 0.0014962553977966309
0.0011524111032485962 0.008989572525024414 0.013338983058929443
0.0 0.018046408891677856 0.0021963119506835938
0.0 0.010151386260986328 0.0
0.0022044777870178223 0.014514774084091187 0.0033171772956848145
0.0013425648212432861 0.008664071559906006 0.0011985301971435547
0.0 0.006041109561920166 0.0
0.0 0.004458069801330566 0.0
0.0 0.0024921000003814697 0.004276692867279053
0.0 0.008666902780532837 0.0015016794204711914
0.0 0.0035268068313598633 0.0047643184661865234
0.0 0.004335761070251465 0.011323213577270508
0.0 0.0045559704303741455 0.006457805633544922
0.0 0.002012312412261963 0.006062150001525879
0.0 0.009107619524002075 0.007843196392059326
0.005594432353973389 0.012518525123596191 0.012685298919677734
0.0014954358339309692 0.013079315423965454 0.009367883205413818
0.0 0.0051066577434539795 0.0011315345764160156
0.0029441267251968384 0.007748812437057495 0.0026557445526123047
0.004907369613647461 0.008210152387619019 0.006249547004699707
0.005895271897315979 0.01088857650756836 0.005553781986236572
0.010313883423805237 0.016724884510040283 0.004187226295471191
0.010912299156188965 0.016285598278045654 0.0002357959747314453
0.005341365933418274 0.014311522245407104 0.0
0.0023886114358901978 0.007094740867614746 0.0
0.0005294382572174072 0.004683375358581543 0.0
0.004515796899795532 0.0038217008113861084 0.0
0.0015577822923660278 0.007933050394058228 0.0
0.0 0.005692958831787109 0.0
0.0 0.004120856523513794 0.0
0.0 0.004243761301040649 0.0
0.0 0.006680995225906372 0.004269003868103027
0.0 0.002972632646560669 0.0037267208099365234
0.0 0.0 0.006296813488006592
0.0 0.0 0.008107483386993408
0.0 0.008074581623077393 0.022046983242034912
0.004878684878349304 0.004671841859817505 0.004803717136383057
0.0059221163392066956 0.006187766790390015 0.0
0.026010416448116302 0.02348703145980835 0.0
0.0 0.05306920409202576 0.0
0.0343453511595726 0.0545428991317749 0.006554603576660156
0.03251742571592331 0.07600215077400208 0.0
0.022985756397247314 0.04777103662490845 0.007220089435577393
0.04996100068092346 0.03309601545333862 0.011283516883850098
0.022575877606868744 0.03979113698005676 0.014548063278198242
0.024445906281471252 0.050040602684020996 0.038460612297058105
0.041083261370658875 0.052017003297805786 0.02359074354171753
0.02741708606481552 0.04977717995643616 0.007993221282958984
0.03016144037246704 0.050795525312423706 0.005987226963043213
0.004285186529159546 0.037385255098342896 0.0
0.0 0.003520786762237549 0.0
0.0 0.0 0.0021098852157592773
0.0 0.0 0.0
0.0 0.0 0.0
0.0 0.0 0.006600558757781982
0.0 0.0 0.020925939083099365
0.0 0.0 0.011550664901733398
0.0 0.0 0.014424562454223633
0.0 0.0 0.008944272994995117
0.0 0.0 0.0074536800384521484
0.0 0.0 0.01683521270751953
0.0 0.0 0.04718911647796631
0.0 0.006642431020736694 0.04785662889480591
0.0 0.04082402586936951 0.02980273962020874
0.0 0.03852465748786926 0.02108931541442871
0.02811337262392044 0.0523076057434082 0.024591922760009766
0.04913000762462616 0.08510488271713257 0.03701221942901611
0.06705769896507263 0.08685663342475891 0.02052241563796997
0.07418554276227951 0.09605565667152405 0.0
0.0804908275604248 0.0933418869972229 0.0
0.06720858812332153 0.0959821343421936 0.0
0.06454753130674362 0.07602396607398987 0.0
0.05444517731666565 0.06186532974243164 0.0
0.050087034702301025 0.04388231039047241 0.0
0.05502636730670929 0.04076334834098816 0.0
0.05137315392494202 0.058653175830841064 0.0
0.03206825256347656 0.053175896406173706 0.0
0.02440744638442993 0.035503119230270386 0.0
0.0 0.025147169828414917 0.004953265190124512
0.0 0.005539059638977051 0.000316619873046875
0.0 0.004201561212539673 0.0013229846954345703
0.0 0.0 0.0
0.0 0.0 0.0
0.0 0.0 0.0013770461082458496
0.0 0.0 0.006399393081665039
0.0 0.0 0.012054681777954102
0.0 0.0 0.011287271976470947
0.0 0.0 0.007436990737915039
0.0 0.0 0.01324474811553955
0.0 0.0 0.025181710720062256
0.0 0.0 0.0253218412399292
0.0 0.0 0.03392249345779419
0.0 0.0 0.03342127799987793
0.0 0.005192875862121582 0.03710782527923584
0.0 0.01788431406021118 0.02380436658859253
0.0 0.014104098081588745 0.01652669906616211
0.0 0.022763073444366455 0.018121957778930664
0.0 0.031085342168807983 0.014756739139556885
0.023845583200454712 0.03410878777503967 0.013946354389190674
0.031049087643623352 0.05587971210479736 0.0027213096618652344
0.04114638268947601 0.07154574990272522 0.0
0.051408469676971436 0.0770997405052185 0.0
0.06710608303546906 0.07441490888595581 0.0
0.05334419012069702 0.06737673282623291 0.0
0.053749024868011475 0.05220913887023926 0.0
0.06487768888473511 0.05082598328590393 0.0
0.06721547245979309 0.05807563662528992 0.0
0.04613575339317322 0.06659829616546631 0.0
0.02968856692314148 0.055379629135131836 0.0
0.027125686407089233 0.041862934827804565 0.0
0.028723910450935364 0.032989829778671265 0.0
0.03913140296936035 0.04307559132575989 0.005688607692718506
0.01664811372756958 0.042577654123306274 0.0
0.0 0.006673872470855713 0.0
0.0 0.0 0.0
0.0 0.0 0.021995902061462402
0.0 0.0 0.03836643695831299
0.0 0.0 0.04782325029373169
0.0 0.0 0.04645282030105591
0.0 0.0 0.04814314842224121
0.0 0.0 0.050869762897491455
0.0 0.0 0.04736888408660889
0.0 0.0 0.039038896560668945
0.0 0.0 0.022804975509643555
0.0 0.0 0.014236688613891602
0.0 0.0 0.015048325061798096
0.0 0.0 0.016524553298950195
0.0 0.006151288747787476 0.017497718334197998
0.0 0.018215298652648926 0.016663312911987305
0.0 0.02610340714454651 0.00338137149810791
0.0 0.017273008823394775 0.0
0.0 0.012956678867340088 0.0
0.004412800073623657 0.01054331660270691 0.0
0.029342904686927795 0.01684194803237915 0.0
0.03520962595939636 0.026906490325927734 0.0
0.03918351233005524 0.04382050037384033 0.0
0.05005358159542084 0.0589928925037384 0.0
0.05974368751049042 0.07198834419250488 0.0
0.05923497676849365 0.07570859789848328 0.0
0.04651212692260742 0.06243479251861572 0.0
0.04824173450469971 0.05411475896835327 0.0
0.05231541395187378 0.04795807600021362 0.001077413558959961
0.044880807399749756 0.060646653175354004 0.0011159777641296387
0.042702287435531616 0.05979380011558533 0.004694819450378418
0.01206400990486145 0.05123224854469299 0.0
0.016757488250732422 0.030520260334014893 0.009974181652069092
0.011845260858535767 0.041675567626953125 0.023900747299194336
0.018907159566879272 0.04472067952156067 0.029675543308258057
0.0 0.03010118007659912 0.014834821224212646
0.0 0.0007024407386779785 0.004949092864990234
0.0 0.0 0.007748842239379883
0.0 0.0 0.01789325475692749
0.0 0.0 0.025638043880462646
0.0 0.0 0.033981502056121826
0.0 0.0 0.03229033946990967
0.0 0.0 0.03148770332336426
0.0 0.0 0.021318376064300537
0.0 0.0 0.015051305294036865
0.0 0.0 0.012545228004455566
0.0 0.0 0.01379305124282837
0.0 0.0 0.020862042903900146
0.0 0.0 0.023824572563171387
0.0 0.0 0.026657521724700928
0.0 0.0 0.028284430503845215
0.0 0.010677635669708252 0.028939485549926758
0.0 0.003918200731277466 0.024938523769378662
0.0 0.006806850433349609 0.027428925037384033
0.0 0.020284831523895264 0.017540037631988525
0.010179102420806885 0.02614322304725647 0.012606322765350342
0.0016670376062393188 0.02657020092010498 0.0
0.004873603582382202 0.012841612100601196 0.0
0.018854141235351562 0.02288302779197693 0.0
0.012674227356910706 0.037924230098724365 0.0
0.013338863849639893 0.03695547580718994 0.0
0.022739112377166748 0.027943968772888184 0.0
0.02465289831161499 0.030772745609283447 0.0
0.036736518144607544 0.05017632246017456 0.0
0.04397645592689514 0.05567184090614319 0.0
0.037602365016937256 0.057585328817367554 0.0
0.03295859694480896 0.05231848359107971 0.0
0.02100813388824463 0.03588142991065979 0.0
0.025134027004241943 0.026941269636154175 0.0
0.02209410071372986 0.02150440216064453 0.0
0.02106432616710663 0.029537558555603027 0.0
0.006229385733604431 0.020675629377365112 0.0
0.011145025491714478 0.02776685357093811 0.0
0.013241976499557495 0.018923699855804443 0.0
0.0105103999376297 0.022687554359436035 0.0
0.0 0.021156907081604004 0.003592550754547119
0.0 0.009527921676635742 0.003101825714111328
0.0 0.0 0.008430957794189453
0.0 0.0 0.034627556800842285
0.0 0.0 0.04387539625167847
0.0 0.0 0.03500330448150635
0.0 0.0 0.027947843074798584
0.0 0.0 0.02289217710494995
0.0 0.0 0.017421483993530273
0.0 0.0 0.01540905237197876
0.0 0.0 0.01020824909210205
0.0 0.0 0.0067743659019470215
0.0 0.0 0.008457183837890625
0.0 0.0010006129741668701 0.013016819953918457
0.0 0.008850455284118652 0.007101178169250488
0.0 0.011188775300979614 0.0
0.0 0.00821530818939209 0.0
0.0 0.0008287131786346436 0.0
0.0 0.005359262228012085 0.0
0.0 0.0067844390869140625 0.001967906951904297
0.0 0.016990602016448975 0.007448911666870117
0.01319052278995514 0.01752305030822754 0.00890970230102539
0.01641353964805603 0.021544277667999268 0.007385194301605225
0.015195727348327637 0.015435457229614258 0.0070416927337646484
0.007125332951545715 0.012746334075927734 0.001286923885345459
0.0070236921310424805 0.010767072439193726 0.005917072296142578
0.006743505597114563 0.01570698618888855 0.005924046039581299
0.015108898282051086 0.01250353455543518 0.014808297157287598
0.01003238558769226 0.01865595579147339 0.01325845718383789
0.004039466381072998 0.00787806510925293 0.0
0.0041932761669158936 0.0066609978675842285 0.0029200315475463867
0.0 0.003707289695739746 0.0055168867111206055
0.0064169615507125854 0.0004982352256774902 0.012189745903015137
0.0026722997426986694 0.004088848829269409 0.014036476612091064
0.00444464385509491 0.005178004503250122 0.0080299973487854
0.0009433776140213013 0.003385573625564575 0.0001189112663269043
0.0 0.009898990392684937 0.0
0.0 0.013595998287200928 0.0
0.0 0.011796802282333374 0.0
0.0 0.009400218725204468 0.005177021026611328
0.0 0.007950842380523682 0.00847393274307251
0.0 0.003146052360534668 0.009653568267822266
0.0 0.004853606224060059 0.008392274379730225
0.00021822750568389893 0.008500337600708008 0.0108756422996521
0.0004193931818008423 0.0097409188747406 0.010644197463989258
0.0 0.008482277393341064 0.005803942680358887
0.0 0.00703015923500061 0.0
0.0 0.008324742317199707 0.0
0.0003024488687515259 0.010362744331359863 0.0
0.0 0.009339839220046997 0.0
0.0 0.00844806432723999 0.0
0.0 0.008618682622909546 0.0
0.0009927749633789062 0.008159399032592773 0.0
0.0018149018287658691 0.007019072771072388 0.0032186508178710938
0.0007472485303878784 0.005475342273712158 0.009865343570709229
0.0002761036157608032 0.0030590295791625977 0.011448204517364502
0.0 0.0 0.01365572214126587
0.0 0.00391116738319397 0.015719115734100342
0.003575056791305542 0.006677687168121338 0.010834217071533203
0.002775058150291443 0.002696216106414795 0.010482430458068848
0.00202198326587677 0.004499554634094238 0.014901578426361084
0.0 0.0 0.010487794876098633
0.0 0.0 0.007854461669921875
0.0 0.0 0.0060288310050964355
0.0 0.0 0.0079994797706604
0.0 0.0 0.026461243629455566
0.0 0.0 0.02130281925201416
0.0 0.0 0.02405858039855957
0.00641961395740509 0.0 0.08847701549530029
0.0 0.00626334547996521 0.166404128074646
0.0 0.0 0.050137877464294434
0.024845391511917114 0.0 0.0
0.15119338035583496 0.030253469944000244 0.0
0.09810978174209595 0.16176867485046387 0.0
0.12089425325393677 0.21672675013542175 0.0
0.04944831132888794 0.2776874899864197 0.0
0.09537643194198608 0.2766939401626587 0.0
0.0856560468673706 0.22864395380020142 0.0
0.0745498538017273 0.2352832853794098 0.0
0.06837290525436401 0.1340487003326416 0.0
0.0 0.0 0.0
0.0 0.0 0.0
0.0 0.0 0.0
0.0 0.00288507342338562 0.0
0.0 0.0 0.0
0.0 0.0 0.0
0.0 0.0 0.0
0.0 0.0 0.20508098602294922
0.0 0.0 0.2980688810348511
0.0 0.10283616185188293 0.25489282608032227
0.0 0.22767582535743713 0.2354297637939453
0.0 0.22815734148025513 0.2766685485839844
0.0 0.24776089191436768 0.3366769552230835
0.0 0.26254162192344666 0.36866313219070435
0.0 0.2542072832584381 0.38275229930877686
0.0 0.22944563627243042 0.3386843204498291
0.0 0.3041101098060608 0.2545023560523987
0.0 0.31720858812332153 0.18738162517547607
0.0 0.2118380069732666 0.24851977825164795
0.0 0.1340150237083435 0.2742311954498291
0.0 0.2315317988395691 0.18030935525894165
0.0 0.24959611892700195 0.14873099327087402
0.0 0.2244674563407898 0.1587352752685547
0.02263018488883972 0.19276243448257446 0.16353505849838257
0.0 0.23071354627609253 0.14635807275772095
0.0 0.2586078643798828 0.08117467164993286
0.03633810579776764 0.20341253280639648 0.09768873453140259
0.04524705559015274 0.1612917184829712 0.10062861442565918
0.03457919508218765 0.10255175828933716 0.10413980484008789
0.0 0.14896637201309204 0.02406609058380127
0.009926475584506989 0.10084575414657593 0.013232827186584473
0.0030294880270957947 0.0864143967628479 0.033875107765197754
0.022561445832252502 0.0905458927154541 0.014518141746520996
0.03287407010793686 0.06837546825408936 0.0
0.027602076530456543 0.052764296531677246 0.0028922557830810547
0.020854603499174118 0.0592462420463562 0.0
0.037390463054180145 0.0682218074798584 0.0
0.06347136199474335 0.06309151649475098 0.0
0.05603192001581192 0.05801361799240112 0.0
0.044901859015226364 0.04043179750442505 0.0
0.02303508296608925 0.03047412633895874 0.0
0.004625454545021057 0.011874139308929443 0.010493874549865723
0.0 0.0185052752494812 0.0
0.02018127590417862 0.016240596771240234 0.0
0.02597428858280182 0.013391315937042236 0.011241257190704346
0.011366181075572968 0.022490382194519043 0.012285947799682617
0.03248397260904312 0.04153728485107422 0.02803933620452881
0.04081445932388306 0.05018669366836548 0.04103648662567139
0.03973052650690079 0.07848161458969116 0.0
0.025313880294561386 0.06003949046134949 0.004427134990692139
0.0007815808057785034 0.009006708860397339 0.004855632781982422
0.0 0.0 0.0
0.0 0.006688594818115234 0.028010666370391846
0.0 0.015037208795547485 0.006564617156982422
0.0 0.02512761950492859 0.0
0.013818399980664253 0.03307056427001953 0.0
0.020190630108118057 0.03076377511024475 0.0
0.012712476775050163 0.03546774387359619 0.0
0.026823459193110466 0.0405137836933136 0.0
0.013592232018709183 0.035125136375427246 0.0
0.024200890213251114 0.027089804410934448 0.0
0.025752291083335876 0.006696492433547974 0.0
0.01955535262823105 0.0 0.0
0.011346958577632904 0.0 0.0
0.000850193202495575 0.006581127643585205 0.0
0.014309749007225037 0.016566991806030273 0.0
0.018702711910009384 0.023148193955421448 0.0
0.020910371094942093 0.03242640197277069 0.0
0.02410181239247322 0.02713876962661743 0.016767024993896484
0.00827052816748619 0.025701463222503662 0.016703486442565918
0.0019434690475463867 0.02098485827445984 0.007609844207763672
0.004027307033538818 0.017535626888275146 0.015155673027038574
0.0 0.00946110486984253 0.017605066299438477
0.0 0.001402825117111206 0.016760051250457764
0.0 0.0 0.011869668960571289
0.0 0.0 0.009625673294067383
0.0 0.0 0.008137047290802002
0.0 0.0 0.017718017101287842
0.0 0.004124045372009277 0.014902710914611816
0.0 0.007814109325408936 0.007274627685546875
0.0 0.009019523859024048 0.014410018920898438
0.0 0.01609519124031067 0.006065785884857178
0.0 0.015857160091400146 0.007452726364135742
0.0 0.014506161212921143 0.012903094291687012
0.0 0.016642659902572632 0.013950645923614502
0.0 0.01287919282913208 0.005390763282775879
0.0 0.008708864450454712 0.0
0.0 0.011463016271591187 0.0
0.0003143399953842163 0.007387608289718628 0.006258249282836914
0.0070603638887405396 0.014976263046264648 0.012386620044708252
0.008259885013103485 0.01231682300567627 0.01453489065170288
0.006328202784061432 0.007616132497787476 0.007633805274963379
0.00021826475858688354 0.007415205240249634 0.001035451889038086
0.004777431488037109 0.01042899489402771 0.0
0.002513580024242401 0.012768715620040894 0.00026035308837890625
0.011464543640613556 0.02048259973526001 0.002647876739501953
0.011048518121242523 0.018939554691314697 0.0
0.011271178722381592 0.014170825481414795 0.0017505288124084473
0.006872847676277161 0.01500663161277771 0.0022420287132263184
0.004783987998962402 0.014036029577255249 0.004983365535736084
0.0016281530261039734 0.015156149864196777 0.005586802959442139
0.002862580120563507 0.012766122817993164 0.008654534816741943
0.0 0.009924381971359253 0.005651712417602539
0.0003144964575767517 0.007355749607086182 0.0037978291511535645
0.0013235211372375488 0.00976794958114624 0.004714608192443848
0.0 0.005336642265319824 0.007611572742462158
0.0 0.004638582468032837 0.006381690502166748
0.0 0.007326245307922363 0.008844912052154541
0.0 0.005429953336715698 0.008828222751617432
0.0 0.007008582353591919 0.009475111961364746
0.0 0.005182236433029175 0.013378739356994629
0.0 0.010645776987075806 0.015826940536499023
0.0016815513372421265 0.013492703437805176 0.01091676950454712
0.010238803923130035 0.02130827307701111 0.00919342041015625
0.012920394539833069 0.02210158109664917 0.006161332130432129
0.00659431517124176 0.016484498977661133 0.001925349235534668
0.0 0.0126362144947052 0.0
0.0 0.007797837257385254 0.0
0.0 0.0034093260765075684 0.0
0.0 0.006683468818664551 0.0
0.0 0.0 0.0
0.0 0.0006618201732635498 0.0
0.0 0.0 0.0002784132957458496
0.0 0.00366780161857605 0.00042510032653808594
0.00012852251529693604 0.005624651908874512 0.001356661319732666
0.004835851490497589 0.010639578104019165 0.0025557875633239746
0.0033122077584266663 0.014519661664962769 0.0012004375457763672
0.001690007746219635 0.01309320330619812 0.0
0.003694087266921997 0.015142679214477539 0.0
0.0032964348793029785 0.011844009160995483 0.000725865364074707
0.0 0.014359444379806519 0.0038406848907470703
0.0034326165914535522 0.017087459564208984 0.008640646934509277
0.001402340829372406 0.01669144630432129 0.010044217109680176
0.0025632381439208984 0.013184458017349243 0.016301274299621582
0.0 0.0105571448802948 0.02022409439086914
0.0 0.0052232444286346436 0.016397416591644287
0.0 0.003537476062774658 0.017219960689544678
0.0007704272866249084 0.0030735433101654053 0.018051862716674805
0.0 0.007966816425323486 0.010944247245788574
0.0006126761436462402 0.007948875427246094 0.0061647891998291016
0.0020573660731315613 0.013383835554122925 0.0022993087768554688
0.005024068057537079 0.014683812856674194 0.0008674263954162598
0.0 0.01650083065032959 0.0
0.005769744515419006 0.010644197463989258 0.0
0.0 0.008453726768493652 0.0
0.0 0.012016534805297852 0.0
0.0 0.006874173879623413 0.0
0.0 0.006841599941253662 0.0
0.0 0.004090487957000732 0.0
0.0 0.006067842245101929 0.0
0.0 0.005625218152999878 0.0021262168884277344
0.0 0.004703640937805176 0.01102602481842041
0.0015964806079864502 0.007993549108505249 0.012751162052154541
0.0 0.009588539600372314 0.003971874713897705
0.0 0.009802907705307007 0.0009556412696838379
0.0 0.006974160671234131 0.0012772083282470703
0.0 0.008504003286361694 0.0
0.0 0.007882773876190186 0.0
0.0002394840121269226 0.009459078311920166 0.0004513263702392578
0.0 0.007992178201675415 0.002344071865081787
0.004891447722911835 0.010769933462142944 0.004084646701812744
0.004434645175933838 0.012498855590820312 0.004293859004974365
0.006069697439670563 0.013655900955200195 0.008276581764221191
0.001235276460647583 0.007213115692138672 0.009994745254516602
0.0 0.010108798742294312 0.00822293758392334
0.0 0.00957179069519043 0.00709003210067749
0.0003485828638076782 0.010805010795593262 0.005459308624267578
0.0026420429348945618 0.009007871150970459 0.00738072395324707
0.0 0.008500009775161743 0.00524824857711792
0.0 0.00656244158744812 0.0
0.0 0.005333751440048218 0.00047218799591064453
0.0 0.00863736867904663 0.001672208309173584
0.0 0.01080334186553955 0.0009334683418273926
0.0 0.013862580060958862 0.0
0.0 0.014930576086044312 0.0
0.0008668974041938782 0.015834271907806396 0.0012010931968688965
0.0020244941115379333 0.006447792053222656 0.003276348114013672
0.0 0.003152132034301758 0.0
0.0 0.00630912184715271 0.0
0.00019105523824691772 0.004944264888763428 0.005308747291564941
0.00045952945947647095 0.0049651265144348145 0.007295370101928711
0.0 0.008514344692230225 0.007897913455963135
0.0 0.012638300657272339 0.007575035095214844
0.0037889033555984497 0.014067232608795166 0.008912920951843262
0.0020233914256095886 0.011742889881134033 0.005825698375701904
0.0 0.012852340936660767 0.0061675310134887695
0.0 0.007448434829711914 0.00544661283493042
0.0 0.010463535785675049 0.005806565284729004
0.0 0.006646066904067993 0.0027185678482055664
0.0 0.005572319030761719 0.004417121410369873
0.0 0.006846696138381958 0.005503237247467041
0.0 0.006759732961654663 0.0034427642822265625
0.0 0.004572838544845581 0.0023294687271118164
0.0 0.004981547594070435 0.000658571720123291
0.0 0.0035497844219207764 0.0005974769592285156
0.0009344518184661865 0.0035668909549713135 0.004105091094970703
0.0001416727900505066 0.007615953683853149 0.003950595855712891
0.00112982839345932 0.009597986936569214 0.0
0.0026283562183380127 0.011145830154418945 0.0
0.0065724849700927734 0.01350337266921997 0.0
0.009744927287101746 0.012512147426605225 0.00031566619873046875
0.0026448145508766174 0.009753227233886719 0.0
0.0 0.007941752672195435 0.0
0.001573026180267334 0.009144455194473267 0.0
0.0 0.006120830774307251 0.005507707595825195
0.005584508180618286 0.00682714581489563 0.010830044746398926
0.008439451456069946 0.010564953088760376 0.011739671230316162
0.005889922380447388 0.015805602073669434 0.0049918293952941895
0.00404541939496994 0.020009905099868774 0.0028101205825805664
0.0 0.01486128568649292 0.0
0.0 0.009557455778121948 0.0031120777130126953
0.0 0.007391601800918579 0.005294144153594971
0.0 0.0026648640632629395 0.0022397637367248535
0.0 0.00517544150352478 0.0029781460762023926
0.0 0.005825310945510864 0.004174530506134033
0.0 0.006974369287490845 0.0064223408699035645
0.0 0.009527057409286499 0.009221673011779785
0.0 0.010011732578277588 0.007715404033660889
0.0 0.013808488845825195 0.002769947052001953
0.0 0.014559179544448853 0.0002454519271850586
0.0 0.012069106101989746 0.0
0.0 0.009908705949783325 0.0
0.0 0.007714211940765381 0.000704646110534668
0.0 0.0049094557762146 0.0036290884017944336
0.0005421936511993408 0.006872743368148804 0.004845023155212402
0.0014639794826507568 0.005849093198776245 0.007063627243041992
0.0 0.0037065744400024414 0.0032596588134765625
0.0 0.006472349166870117 0.003964722156524658
0.002994842827320099 0.013258785009384155 0.0017385482788085938
0.004143431782722473 0.016540557146072388 0.0
0.0 0.011987537145614624 0.0
0.0 0.011463522911071777 0.00727921724319458
0.0 0.005766034126281738 0.011859774589538574
0.0 0.005715727806091309 0.014675140380859375
0.0 0.0036238133907318115 0.010753870010375977
0.0 0.009622156620025635 0.012010812759399414
0.0 0.007958590984344482 0.013673543930053711
0.0 0.005322813987731934 0.007691740989685059
0.0 0.005494594573974609 0.0067192912101745605
0.0 0.009836554527282715 0.007142305374145508
0.0 0.012485921382904053 0.004089057445526123
0.000772625207901001 0.014440834522247314 0.004247903823852539
0.0022811293601989746 0.014336854219436646 0.00602799654006958
0.0024623721837997437 0.007709980010986328 0.00377732515335083
0.005640283226966858 0.015351295471191406 0.001011490821838379
0.031746089458465576 0.02726435661315918 0.0
0.041467875242233276 0.05679914355278015 0.0
0.03584279119968414 0.06250357627868652 0.0
0.051302820444107056 0.08251017332077026 0.0
0.053152263164520264 0.08217868208885193 0.0
0.05529215931892395 0.07839137315750122 0.0
0.055701181292533875 0.07369211316108704 0.0
0.04205144941806793 0.06078541278839111 0.0
0.025697842240333557 0.044457584619522095 0.014550447463989258
0.02040278911590576 0.019702285528182983 0.043418288230895996
0.007226675748825073 0.01373600959777832 0.050364017486572266
0.0 0.0 0.038117170333862305
0.0 0.0 0.023595452308654785
0.0 0.0 0.010671615600585938
0.0 0.0 0.012163996696472168
0.0 0.0 0.006215512752532959
0.0 0.0 0.0049544572830200195
0.0 0.0 0.02121347188949585
0.0 0.0 0.029791712760925293
0.0 0.0 0.03053969144821167
0.0 0.0 0.04507100582122803
0.0 0.0 0.04880809783935547
0.0 0.0 0.05243915319442749
0.0 0.00527268648147583 0.052568793296813965
0.0 0.02267584204673767 0.04808247089385986
0.0018478035926818848 0.04258614778518677 0.047709882259368896
0.00992487370967865 0.054706871509552 0.0366019606590271
0.01337788999080658 0.05536752939224243 0.013332843780517578
0.020651429891586304 0.05612799525260925 0.0
0.028642654418945312 0.04666981101036072 0.0
0.031071126461029053 0.041165053844451904 0.0
0.04557846486568451 0.04612645506858826 0.0
0.052511394023895264 0.04409509897232056 0.0
0.05556322634220123 0.04336807131767273 0.0
0.047505393624305725 0.03962564468383789 0.0
0.05110365152359009 0.04148659110069275 0.0
0.05335104465484619 0.04469221830368042 0.0
0.059470951557159424 0.04794949293136597 0.0
0.05322940647602081 0.04843398928642273 0.0
0.051846325397491455 0.05553889274597168 0.0
0.05557072162628174 0.06346192955970764 0.0
0.03950636088848114 0.056656599044799805 0.0
0.01611727476119995 0.028177648782730103 0.0
0.0 0.007305115461349487 0.0
0.0 0.0 0.0006009936332702637
0.0 0.0 0.007524728775024414
0.0 0.0 0.005367457866668701
0.0 0.0 0.018924951553344727
0.0 0.0 0.03155791759490967
0.0 0.0 0.0380403995513916
0.0 0.0 0.035993337631225586
0.0 0.0 0.03597843647003174
0.0 0.0 0.032794058322906494
0.0 0.0 0.033428728580474854
0.0 0.0 0.02622830867767334
0.0 0.0 0.01926863193511963
0.0 0.008489638566970825 0.01583009958267212
0.0 0.016353726387023926 0.0071669816970825195
0.002101883292198181 0.02101317048072815 0.0012643933296203613
0.002630457282066345 0.0277712345123291 0.0
0.0007936358451843262 0.011059463024139404 0.0
0.0 0.003895699977874756 0.0
0.007057294249534607 0.006699860095977783 0.005468845367431641
0.02749277651309967 0.03399506211280823 0.006516635417938232
0.05312900245189667 0.046933263540267944 0.0
0.05959092080593109 0.05528709292411804 0.0
0.049464523792266846 0.05112376809120178 0.0
0.04125584661960602 0.06151166558265686 0.0
0.045493900775909424 0.05914279818534851 0.0
0.041885167360305786 0.05795317888259888 0.0
0.03774644434452057 0.054529815912246704 0.0
0.028508469462394714 0.04356038570404053 0.0
0.021825715899467468 0.03642868995666504 0.0
0.02079389989376068 0.03300336003303528 0.0
0.023334816098213196 0.03455302119255066 0.0012025237083435059
0.0226946622133255 0.0390988290309906 0.007192015647888184
0.016228243708610535 0.033307433128356934 0.0020174384117126465
0.0 0.02439206838607788 0.0
0.0 0.00020119547843933105 0.00659257173538208
0.0 0.001927495002746582 0.02174299955368042
0.0 0.002630263566970825 0.02260887622833252
0.0 0.0024972259998321533 0.008163213729858398
0.0 0.0 0.0004627704620361328
0.0 0.0 0.012414038181304932
0.0 0.0 0.024383842945098877
0.0 0.0 0.04717487096786499
0.0 0.0 0.04506087303161621
0.0 0.0 0.02970707416534424
0.0 0.0 0.022966384887695312
0.0 0.0 0.027525722980499268
0.0 0.0 0.028800785541534424
0.0 0.0 0.032578110694885254
0.0 0.0022659003734588623 0.0263214111328125
0.0 0.019295841455459595 0.01983058452606201
0.0 0.02310621738433838 0.007974982261657715
0.0007458031177520752 0.03295508027076721 0.0008188486099243164
0.010841980576515198 0.03765296936035156 0.0
0.016885101795196533 0.03818431496620178 0.0
0.02654777467250824 0.05408811569213867 0.0
0.041069433093070984 0.06614848971366882 0.0
0.047207608819007874 0.06357139348983765 0.0
0.04469625651836395 0.06377410888671875 0.0
0.03646665811538696 0.04732653498649597 0.0
0.035845935344696045 0.038624107837677 0.0
0.03118981420993805 0.0226251482963562 0.0
0.027695506811141968 0.01854926347732544 0.0
0.030144304037094116 0.027715086936950684 0.0
0.035422444343566895 0.0368996262550354 0.0
0.03403431177139282 0.03860023617744446 0.0
0.04025304317474365 0.05824589729309082 0.0
0.04684239625930786 0.06515499949455261 0.0
0.03982514142990112 0.06261026859283447 0.0
0.01404118537902832 0.025983601808547974 0.0
0.0 0.010562986135482788 0.0
0.0 0.0 0.0
0.0 0.0 0.004954218864440918
0.0 0.0 0.0015340447425842285
0.0 0.0 0.013444185256958008
0.0 0.0 0.033308565616607666
0.0 0.0 0.0407295823097229
0.0 0.0 0.04803454875946045
0.0 0.0 0.04494178295135498
0.0 0.0 0.04875600337982178
0.0 0.0 0.046832263469696045
0.0 0.0 0.04319453239440918
0.0 0.003405928611755371 0.03345990180969238
0.0 0.011541515588760376 0.024345576763153076
0.0 0.016114264726638794 0.02663552761077881
0.0 0.027885407209396362 0.026086509227752686
0.003825277090072632 0.036811381578445435 0.020772278308868408
0.018123984336853027 0.051465779542922974 0.011986613273620605
0.028137773275375366 0.06526339054107666 0.0
0.04242265224456787 0.07451462745666504 0.0
0.04723212122917175 0.06634816527366638 0.0
0.03275561332702637 0.04388260841369629 0.0
0.017367780208587646 0.016131192445755005 0.0
0.011094540357589722 0.0 0.0
0.011951178312301636 0.0 0.004875659942626953
0.010340452194213867 0.0 0.005576789379119873
0.006318539381027222 0.0 0.003761470317840576
0.00784999132156372 0.0 0.0
0.0030729472637176514 0.0 0.0
0.0 0.0 0.0
0.0 0.0 0.0
0.0 0.0 0.0012606978416442871
0.0 0.0 0.0005022287368774414
0.0 0.0 0.007166147232055664
0.0 0.0 0.0031061768531799316
0.0 0.0 0.016089141368865967
0.0 0.0 0.03136622905731201
0.005370110273361206 0.02276015281677246 0.032917559146881104
0.02556346356868744 0.04380729794502258 0.020002007484436035
0.02570284903049469 0.0747847855091095 0.001901865005493164
0.036424681544303894 0.08195316791534424 0.0
0.04245692491531372 0.09007874131202698 0.0
0.041460901498794556 0.09052738547325134 0.0
0.03539331257343292 0.08474138379096985 0.0
0.025195345282554626 0.06247931718826294 0.0
0.01645416021347046 0.0410425066947937 0.0
0.009352520108222961 0.024293571710586548 0.0
0.0 0.01476559042930603 0.002998054027557373
0.0 0.0010370910167694092 0.006734967231750488
0.0 0.004772454500198364 0.0
0.0 0.0 0.00031620264053344727
0.0 0.0 0.016671359539031982
0.0 0.0 0.03568434715270996
0.0 0.0 0.0322415828704834
0.0 0.0 0.020497560501098633
0.0 0.0 0.018681645393371582
0.0 0.003444075584411621 0.016202986240386963
0.0 0.012159287929534912 0.0071375370025634766
0.0 0.014152497053146362 0.0
0.0 0.02086499333381653 0.0
0.0 0.022516697645187378 0.0
0.0102480947971344 0.015322178602218628 0.01324993371963501
0.011315718293190002 0.012609779834747314 0.021746695041656494
0.006888002157211304 0.001832038164138794 0.016660094261169434
0.0010100454092025757 0.004638493061065674 0.010663449764251709
0.002123519778251648 0.00892743468284607 0.0
0.0 0.014815062284469604 0.0
0.0 0.01866111159324646 0.0
0.0 0.013271033763885498 0.0
0.0 0.012512236833572388 0.0
0.0 0.003386199474334717 0.0
0.0 0.0 0.0
0.0 0.0 0.002859950065612793
0.0 0.0 0.0018219947814941406
0.0 0.0 0.00537484884262085
0.0 0.0 0.01115638017654419
0.0018469393253326416 0.001934051513671875 0.009149491786956787
0.0048864781856536865 0.015906035900115967 0.003483593463897705
0.011792212724685669 0.01596418023109436 0.0044400691986083984
0.011253491044044495 0.023881971836090088 0.005818009376525879
0.01696668565273285 0.02391567826271057 0.013011395931243896
0.023254871368408203 0.029082119464874268 0.014276385307312012
0.019201666116714478 0.027003735303878784 0.014080345630645752
0.001484498381614685 0.014062613248825073 0.0
0.00257931649684906 0.0027348995208740234 0.0020902156829833984
0.0047121793031692505 0.007148683071136475 0.007372140884399414
0.0036292970180511475 0.011543512344360352 0.0
0.0 0.011648446321487427 0.0
0.0 0.00948113203048706 0.0
0.0 0.006575793027877808 0.0037836432456970215
0.0 0.00711175799369812 0.007982850074768066
0.0 0.0 0.0048406124114990234
0.0 0.0 0.006315052509307861
0.0 0.0 0.006229043006896973
0.0 0.0 0.005316734313964844
0.0 0.0 0.013076603412628174
0.0 0.0 0.020837903022766113
0.0 0.0 0.019756197929382324
0.00010995566844940186 0.000270843505859375 0.022960782051086426
0.006250560283660889 0.011029571294784546 0.020819783210754395
0.006255894899368286 0.01505252718925476 0.010005950927734375
0.008755698800086975 0.019207298755645752 0.007161080837249756
0.01683706045150757 0.02098020911216736 0.004936099052429199
0.02555517852306366 0.022643864154815674 0.0013883113861083984
0.0 0.024086713790893555 0.0
0.0 0.02683943510055542 0.0
0.00541040301322937 0.013221681118011475 0.0
0.0 0.0013569295406341553 0.0
0.036966025829315186 0.0008293986320495605 0.008745193481445312
0.054362207651138306 0.006118983030319214 0.021736443042755127
0.032947391271591187 0.041435956954956055 0.013291537761688232
0.04107794165611267 0.04375341534614563 0.012234330177307129
0.04282549023628235 0.05613169074058533 0.0
0.05950498580932617 0.10753792524337769 0.0
0.0763394832611084 0.11003285646438599 0.0
0.13132745027542114 0.14035212993621826 0.0
0.1691572666168213 0.19901859760284424 0.0
0.0 0.19539320468902588 0.0
0.0 0.14789509773254395 0.0
0.0 0.17956936359405518 0.0
0.0 0.09348410367965698 0.0
0.0 0.0014802217483520508 0.0
0.0 0.0 0.0
0.0 0.0 0.0
0.0 0.0 0.16617608070373535
0.0 0.0 0.1503833532333374
0.0 0.0 0.06900620460510254
0.0 0.058762431144714355 0.08045125007629395
0.0 0.10762438178062439 0.10786914825439453
0.0 0.08176928758621216 0.17431092262268066
0.0 0.08422151207923889 0.19245445728302002
0.0 0.1126771867275238 0.2907376289367676
0.0 0.09874671697616577 0.37539100646972656
0.0 0.15054938197135925 0.37737393379211426
0.0 0.30034685134887695 0.29411035776138306
0.0 0.2594482898712158 0.30963265895843506
0.0 0.21213096380233765 0.341106653213501
0.0 0.17375242710113525 0.31437885761260986
0.0 0.20036768913269043 0.2792325019836426
0.0 0.18064463138580322 0.2566554546356201
0.0 0.2781296372413635 0.15944594144821167
0.0 0.17654424905776978 0.15252166986465454
0.0059337317943573 0.12090069055557251 0.1407148838043213
0.0 0.12693184614181519 0.1448308825492859
0.0 0.1560443639755249 0.14756715297698975
0.0 0.23403775691986084 0.10503160953521729
0.018324673175811768 0.22518783807754517 0.10831719636917114
0.0522494912147522 0.17215561866760254 0.14672625064849854
0.0637521892786026 0.157057523727417 0.12928879261016846
0.018791869282722473 0.1709674596786499 0.08867734670639038
0.0 0.16576826572418213 0.06750917434692383
0.0 0.14933747053146362 0.04884600639343262
0.04383601248264313 0.11963510513305664 0.08766049146652222
0.03779728710651398 0.11554056406021118 0.07626062631607056
0.0 0.11950790882110596 0.0
0.010423555970191956 0.07680535316467285 0.0
0.02573292702436447 0.05365854501724243 0.0
0.044889822602272034 0.023883163928985596 0.0
0.03728353977203369 0.010670900344848633 0.0
0.0 0.043542563915252686 0.0
0.010804891586303711 0.03313833475112915 0.0
0.03489863872528076 0.023709535598754883 0.0
0.04608917236328125 0.016629576683044434 0.0
0.03435926139354706 0.01221233606338501 0.013426542282104492
0.00860816240310669 0.035517871379852295 0.0
0.018089696764945984 0.06128054857254028 0.0
0.050562784075737 0.05939608812332153 0.0
0.05315268039703369 0.042395710945129395 0.009987175464630127
0.039197683334350586 0.013609170913696289 0.03369295597076416
0.013679519295692444 0.013525784015655518 0.02368330955505371
0.0 0.02115929126739502 0.0
0.014831047505140305 0.02568429708480835 0.0
0.017680564895272255 0.02457451820373535 0.0
0.010501580312848091 0.01154559850692749 0.0
0.004240192472934723 0.005840122699737549 0.0
0.0021383482962846756 0.0068672895431518555 0.0
0.0 0.019821137189865112 0.0
0.0 0.021022796630859375 0.0
0.009454939514398575 0.023189842700958252 0.0
0.01007019728422165 0.027678996324539185 0.0
0.009058210998773575 0.02384321391582489 0.0
0.002179604023694992 0.012195229530334473 0.0
0.0020155012607574463 0.00215873122215271 0.0
0.0 0.0004545450210571289 0.0
0.0 0.0 0.0
0.0 0.0 0.0
0.0 0.0 0.0
0.0 0.0007323920726776123 0.001208662986755371
0.0 0.007434844970703125 0.0011804699897766113
0.005584493279457092 0.011963695287704468 0.013011574745178223
0.0 0.0 0.047167956829071045
0.03876861557364464 0.022647619247436523 0.006066083908081055
0.016778960824012756 0.033882707357406616 0.0
0.0 0.014997810125350952 0.0
0.0 0.005478978157043457 0.0
0.0 0.005789905786514282 0.0
0.0009631365537643433 0.0 0.01908975839614868
0.010966747999191284 0.0034259557723999023 0.024911105632781982
0.019457653164863586 0.00016236305236816406 0.023363828659057617
0.009804531931877136 0.005721539258956909 0.01549762487411499
0.00028949975967407227 0.0 0.0
0.0 0.016810834407806396 0.0
0.0 0.02084316313266754 0.0
0.0036225169897079468 0.024549812078475952 0.0
0.0 0.02074253559112549 0.0
0.0 0.012681394815444946 0.0
0.00778120756149292 0.020441949367523193 0.0
0.0 0.02160114049911499 0.014378905296325684
0.0005944520235061646 0.012061059474945068 0.03174084424972534
0.0 0.004307925701141357 0.024757802486419678
0.013303190469741821 0.0 0.018976151943206787
0.0029654353857040405 0.0 0.019150853157043457
0.01116129755973816 0.0 0.02469766139984131
0.0 0.0 0.03855419158935547
0.0044619739055633545 0.0 0.0
0.0 0.015746384859085083 0.0010187625885009766
0.0 0.0 0.019988954067230225
0.0 0.010913729667663574 0.0
0.0 0.003991991281509399 0.0
0.0 0.022533506155014038 0.002397000789642334
0.026490509510040283 0.03802803158760071 0.0
0.01917918026447296 0.039712339639663696 0.0
0.024362072348594666 0.04167851805686951 0.0
0.022409498691558838 0.04141265153884888 0.0
0.02840845286846161 0.0391252338886261 0.0
0.025021806359291077 0.026858597993850708 0.004341065883636475
0.0038625746965408325 0.023818403482437134 0.009833276271820068
0.0 0.01412150263786316 0.012299776077270508
0.007601544260978699 0.0018245279788970947 0.01200801134109497
0.0 0.0071125030517578125 0.01859837770462036
0.0 0.0 0.00807112455368042
0.0 0.011354029178619385 0.0044441819190979
0.004586070775985718 0.007857978343963623 0.0
0.004271164536476135 0.01398053765296936 0.0
0.005914360284805298 0.014362841844558716 0.0
0.0 0.02238181233406067 0.0
0.0 0.0209139883518219 0.0
0.017689183354377747 0.0036505162715911865 0.0
0.0 0.006401747465133667 0.008056461811065674
0.001289069652557373 0.002287626266479492 0.007432997226715088
0.0 0.016752809286117554 0.024905622005462646
0.005109354853630066 0.007770895957946777 0.00926518440246582
0.0 0.016296356916427612 0.00781315565109253
0.0 0.014276161789894104 0.009039640426635742
0.01645827293395996 0.007315009832382202 0.010077714920043945
0.0 0.007496878504753113 0.007769465446472168
0.0 0.001193895936012268 0.01319807767868042
0.0 0.0121384859085083 0.0
0.0 0.011148273944854736 0.0
0.037281811237335205 0.04131889343261719 0.0452347993850708
0.012182831764221191 0.0 0.0
0.0 0.0 0.0
0.0 0.0 0.0
0.0 0.006927520036697388 0.0
0.0 0.05186943709850311 0.0
